Folder: FysC13_14/XrayData

File: Ag_xrd.xyd
20.000   55.8000
20.270   57.2000
20.540   56.6000
20.810   50.0000
21.080   53.8000
21.350   59.0000
21.620   54.4000
21.890   52.6000
22.160   48.6000
22.430   55.8000
22.700   50.6000
22.970   49.6000
23.240   45.6000
23.510   46.8000
23.780   41.0000
24.050   45.0000
24.320   45.2000
24.590   39.8000
24.860   40.4000
25.130   40.8000
25.400   38.4000
25.670   35.4000
25.940   38.0000
26.210   41.2000
26.480   31.8000
26.750   36.6000
27.020   32.0000
27.290   33.2000
27.560   34.8000
27.830   32.2000
28.100   32.0000
28.370   29.6000
28.640   27.8000
28.910   26.6000
29.180   30.2000
29.450   25.6000
29.720   26.6000
29.990   26.8000
30.260   30.2000
30.530   27.2000
30.800   26.2000
31.070   24.0000
31.340   25.2000
31.610   23.4000
31.880   25.0000
32.150   20.0000
32.420   18.8000
32.690   22.4000
32.960   23.2000
33.230   24.4000
33.500   21.4000
33.770   23.4000
34.040   24.0000
34.310   19.8000
34.580   22.8000
34.850   19.2000
35.120   23.0000
35.390   22.6000
35.660   20.2000
35.930   23.4000
36.200   24.2000
36.470   22.6000
36.740   25.6000
37.010   28.0000
37.280   33.6000
37.550   50.8000
37.820  163.8000
38.090  378.4000
38.360   71.0000
38.630   41.4000
38.900   31.2000
39.170   28.4000
39.440   23.6000
39.710   22.6000
39.980   23.6000
40.250   19.8000
40.520   21.0000
40.790   20.6000
41.060   21.4000
41.330   19.4000
41.600   20.2000
41.870   20.0000
42.140   20.0000
42.410   22.6000
42.680   20.6000
42.950   22.4000
43.220   25.4000
43.490   31.0000
43.760   43.0000
44.030  104.2000
44.300  113.4000
44.570   43.8000
44.840   26.4000
45.110   17.6000
45.380   16.0000
45.650   18.8000
45.920   13.2000
46.190   13.6000
46.460   14.8000
46.730   14.8000
47.000   15.8000
47.270   13.8000
47.540   12.0000
47.810   11.0000
48.080   13.6000
48.350   12.2000
48.620   13.0000
48.890   11.4000
49.160   10.8000
49.430   10.2000
49.700   11.6000
49.970   10.8000
50.240   11.8000
50.510   10.0000
50.780   14.4000
51.050   10.6000
51.320   10.8000
51.590    9.0000
51.860    9.4000
52.130   10.6000
52.400   12.4000
52.670   10.8000
52.940   12.8000
53.210   10.8000
53.480   11.4000
53.750   11.0000
54.020    8.4000
54.290    8.4000
54.560    9.2000
54.830    9.6000
55.100    8.6000
55.370    8.8000
55.640    8.8000
55.910    8.6000
56.180   10.2000
56.450    8.4000
56.720    7.4000
56.990    7.6000
57.260    7.8000
57.530   13.0000
57.800   10.6000
58.070    8.8000
58.340    7.4000
58.610    7.6000
58.880    6.2000
59.150    8.8000
59.420    7.6000
59.690   10.4000
59.960    9.4000
60.230    8.0000
60.500    9.2000
60.770    8.4000
61.040    8.6000
61.310    9.4000
61.580    8.8000
61.850    9.8000
62.120   11.4000
62.390   11.4000
62.660   10.0000
62.930   11.2000
63.200   10.4000
63.470   10.8000
63.740   17.6000
64.010   26.2000
64.280  125.0000
64.550   43.8000
64.820   18.2000
65.090   11.4000
65.360   10.8000
65.630   12.8000
65.900    9.6000
66.170    8.2000
66.440    9.0000
66.710    6.8000
66.980    8.0000
67.250    9.6000
67.520    9.6000
67.790    6.6000
68.060   10.6000
68.330    6.6000
68.600    7.6000
68.870    7.6000
69.140    9.2000
69.410    6.4000
69.680    5.8000
69.950    6.6000
70.220    6.8000
70.490    6.0000
70.760    7.8000
71.030    7.8000
71.300    9.6000
71.570    7.2000
71.840    6.4000
72.110    6.6000
72.380    9.0000
72.650   11.0000
72.920    6.8000
73.190    6.0000
73.460    7.2000
73.730    9.8000
74.000    5.2000
74.270    7.6000
74.540    7.6000
74.810    8.0000
75.080    9.6000
75.350    8.8000
75.620   11.8000
75.890   10.4000
76.160    9.8000
76.430   13.8000
76.700   17.4000
76.970   41.8000
77.240  138.0000
77.510   38.6000
77.780   17.2000
78.050   12.8000
78.320    7.8000
78.590   10.8000
78.860   10.6000
79.130   10.0000
79.400    8.4000
79.670   10.0000
79.940    6.6000
80.210    7.8000
80.480   11.0000
80.750   12.2000
81.020   14.8000
81.290   35.6000
81.560   22.2000
81.830   11.8000
82.100    9.0000
82.370    8.0000
82.640    6.8000
82.910    8.4000
83.180    6.2000
83.450    7.6000
83.720    7.2000
83.990    7.4000
84.260    8.6000
84.530    6.4000
84.800    7.2000
85.070    5.6000
85.340    6.2000
85.610    7.6000
85.880    7.2000
86.150    7.0000
86.420    8.0000
86.690    6.0000
86.960    6.2000
87.230    7.4000
87.500    6.6000
87.770    5.0000
88.040    7.4000
88.310    6.0000
88.580    6.2000
88.850    6.6000
89.120    7.2000
89.390    7.2000
89.660    6.0000
89.930    6.4000
90.200    6.6000
90.470    6.8000
90.740    6.4000
91.010    6.4000
91.280    7.6000
91.550    7.8000
91.820    4.0000
92.090    5.6000
92.360    7.0000
92.630    5.8000
92.900    7.6000
93.170    6.6000
93.440    6.4000
93.710    8.2000
93.980    7.4000
94.250    8.2000
94.520    5.6000
94.790    6.4000
95.060    8.6000
95.330    6.6000
95.600    7.8000
95.870    7.0000
96.140    7.2000
96.410    7.4000
96.680    8.4000
96.950    7.4000
97.220    9.8000
97.490   12.4000
97.760   18.6000
98.030   12.0000
98.300    9.4000
98.570    8.6000
98.840    7.4000
99.110    6.8000
99.380    7.2000
99.650    6.0000
99.920    7.2000
100.085    5.2000

File: mixture_xrd.xyd
20.000   43.6000
20.270   39.4000
20.540   40.2000
20.810   40.8000
21.080   39.6000
21.350   39.4000
21.620   31.4000
21.890   41.2000
22.160   38.6000
22.430   37.8000
22.700   38.2000
22.970   36.6000
23.240   36.2000
23.510   30.8000
23.780   30.4000
24.050   30.4000
24.320   30.6000
24.590   27.8000
24.860   31.8000
25.130   35.2000
25.400   76.6000
25.670   31.6000
25.940   26.2000
26.210   24.8000
26.480   28.2000
26.750   25.0000
27.020   24.0000
27.290   25.0000
27.560   26.0000
27.830   20.8000
28.100   22.4000
28.370   23.2000
28.640   24.6000
28.910   21.8000
29.180   21.2000
29.450   19.8000
29.720   18.6000
29.990   23.4000
30.260   20.2000
30.530   17.6000
30.800   23.4000
31.070   19.0000
31.340   15.8000
31.610   17.4000
31.880   20.6000
32.150   20.4000
32.420   16.4000
32.690   16.8000
32.960   17.4000
33.230   21.4000
33.500   16.4000
33.770   16.6000
34.040   16.4000
34.310   16.0000
34.580   19.2000
34.850   30.8000
35.120  168.0000
35.390   18.2000
35.660   17.2000
35.930   17.6000
36.200   20.2000
36.470   18.6000
36.740   19.8000
37.010   19.4000
37.280   24.6000
37.550   55.2000
37.820   99.8000
38.090  302.6000
38.360   53.0000
38.630   32.6000
38.900   20.8000
39.170   20.6000
39.440   17.8000
39.710   15.8000
39.980   15.8000
40.250   19.0000
40.520   17.6000
40.790   13.4000
41.060   15.0000
41.330   16.0000
41.600   17.0000
41.870   15.0000
42.140   14.0000
42.410   13.8000
42.680   16.0000
42.950   24.2000
43.220  187.4000
43.490   29.8000
43.760   28.2000
44.030   57.8000
44.300   88.6000
44.570   29.8000
44.840   20.0000
45.110   15.8000
45.380   14.0000
45.650   14.8000
45.920   12.8000
46.190   13.0000
46.460   10.2000
46.730   11.6000
47.000   12.4000
47.270   12.6000
47.540   10.8000
47.810   12.6000
48.080   11.2000
48.350   11.0000
48.620   11.8000
48.890    9.0000
49.160    9.0000
49.430    9.6000
49.700    9.6000
49.970    9.8000
50.240    9.4000
50.510    8.6000
50.780    9.2000
51.050    8.0000
51.320    7.2000
51.590   10.4000
51.860    9.4000
52.130   12.4000
52.400   81.0000
52.670   13.6000
52.940   11.2000
53.210   11.2000
53.480   10.0000
53.750    7.4000
54.020    8.4000
54.290    6.2000
54.560    7.4000
54.830    9.8000
55.100    8.4000
55.370    8.6000
55.640    9.8000
55.910    9.4000
56.180    7.6000
56.450    7.0000
56.720   10.0000
56.990   11.6000
57.260   47.0000
57.530   37.2000
57.800    9.8000
58.070   10.4000
58.340    7.0000
58.610    7.4000
58.880    8.8000
59.150    5.4000
59.420    9.2000
59.690   12.4000
59.960    6.6000
60.230    5.6000
60.500    6.2000
60.770    7.8000
61.040   16.4000
61.310   11.6000
61.580    7.4000
61.850    6.8000
62.120    6.6000
62.390    6.2000
62.660    8.0000
62.930    9.8000
63.200    8.2000
63.470    7.8000
63.740   10.4000
64.010   20.0000
64.280   67.0000
64.550   29.6000
64.820   13.2000
65.090   13.0000
65.360    9.2000
65.630    9.2000
65.900    7.0000
66.170   13.4000
66.440   92.4000
66.710    9.8000
66.980    9.2000
67.250    8.2000
67.520    7.0000
67.790    8.8000
68.060   99.0000
68.330   10.4000
68.600    7.4000
68.870    6.6000
69.140    5.2000
69.410    7.0000
69.680    6.8000
69.950    6.8000
70.220    7.6000
70.490    4.8000
70.760    7.4000
71.030    8.0000
71.300    7.2000
71.570    5.4000
71.840    6.8000
72.110    5.8000
72.380    5.8000
72.650    8.0000
72.920    6.4000
73.190    7.4000
73.460    7.2000
73.730    4.8000
74.000    7.4000
74.270    7.8000
74.540    6.0000
74.810    6.8000
75.080    7.0000
75.350    8.2000
75.620    5.8000
75.890    8.2000
76.160    7.8000
76.430   11.8000
76.700   28.4000
76.970   27.4000
77.240   78.8000
77.510   31.0000
77.780   17.8000
78.050    9.8000
78.320    7.0000
78.590    8.0000
78.860    8.2000
79.130    7.8000
79.400    7.4000
79.670    5.6000
79.940    6.0000
80.210    8.2000
80.480   13.0000
80.750    9.8000
81.020    9.2000
81.290   19.4000
81.560   17.6000
81.830   11.0000
82.100    7.0000
82.370    5.6000
82.640    6.4000
82.910    7.8000
83.180    8.2000
83.450    6.8000
83.720    5.0000
83.990    5.6000
84.260   17.2000
84.530    6.4000
84.800    5.4000
85.070    7.0000
85.340    6.6000
85.610    6.2000
85.880    6.6000
86.150   11.0000
86.420   11.0000
86.690    6.0000
86.960    6.8000
87.230    7.8000
87.500    5.0000
87.770    6.0000
88.040    6.4000
88.310    6.0000
88.580    8.2000
88.850   17.0000
89.120    7.2000
89.390    6.0000
89.660    6.0000
89.930    6.6000
90.200    5.8000
90.470    8.0000
90.740    6.2000
91.010   16.2000
91.280    8.2000
91.550    5.4000
91.820    4.8000
92.090    7.4000
92.360    3.8000
92.630    6.0000
92.900    5.0000
93.170    4.6000
93.440    4.2000
93.710    5.8000
93.980    5.0000
94.250    6.0000
94.520    5.0000
94.790    8.0000
95.060   27.2000
95.330   11.2000
95.600    6.4000
95.870    6.2000
96.140    6.4000
96.410    6.0000
96.680    6.6000
96.950    5.8000
97.220    6.2000
97.490    9.4000
97.760   10.8000
98.030    9.4000
98.300    9.4000
98.570    6.2000
98.840    6.8000
99.110    5.6000
99.380    8.0000
99.650    5.6000
99.920    6.2000
100.085    6.0000